Folder: laser_processed_steel_microstructure_experimental_data

Note: README.md
# laser_processed_steel_microstructure_experimental_data

File: XRD Datasets
           As
     2Î¸         Intensity
20.0263 1304.0093310134920.02626056 1477.01
20.3973 1467.85
20.7683 1467.33
21.1393 1499.95
21.5103 1510.97
21.8813 1423.52
22.2523 1424.58
22.6233 1372.61
22.9943 1469.8
23.3653 1428.85
23.7363 1498.24
24.1073 1468.93
24.4783 1439.98
24.8493 1373.5
25.2203 1397.85
25.5913 1388.08
25.9623 1444.84
26.3333 1432.96
26.7043 1387.28
27.0753 1335.77
27.4463 1370.96
27.8173 1355
28.1883 1368.63
28.5593 1431.99
28.9303 1421.65
29.3013 1483.77
29.6723 1412.71
30.0433 1459.15
30.4143 1428.66
30.7853 1452.79
31.1563 1461.99
31.5273 1477.51
31.8983 1454.25
32.2693 1435.1
32.6403 1437.33
33.0113 1457.49
33.3823 1437.11
33.7533 1457.5
34.1243 1507.41
34.4953 1540.1
34.8663 1513.8
35.2373 1441.2
35.6083 1519.53
35.9793 1503.12
36.3503 1511.01
36.7213 1442.43
37.0923 1530.45
37.4633 1582.99
37.8343 1516.31
38.2053 1475.35
38.5763 1491.29
38.9473 1518.12
39.3183 1512.01
39.6893 1556.26
40.0603 1567.94
40.4313 1575.22
40.8023 1527.2
41.1733 1548.49
41.5443 1582.96
41.9153 1562.07
42.2863 1638.7
42.6573 1630.24
43.0283 1579.44
43.3993 1567.68
43.7703 1589.06
44.1413 1586.16
44.5123 1657.19
44.8833 1638.69
45.2543 1653.21
45.6253 1596.03
45.9963 1628.74
46.3673 1626.35
46.7383 1709.01
47.1093 1725.22
47.4803 1706.05
47.8513 1688.95
48.2223 1730.06
48.5933 1783.03
48.9643 1721.14
49.3353 1758.61
49.7063 1850.46
50.0773 1998.45
50.4483 2484.77
50.8193 3548.58
51.1903 2533.11
51.5613 3086.48
51.9323 8248.5
52.3033 11094.1
52.6743 2984.98
53.0453 2114.87
53.4163 1958.78
53.7873 1866.42
54.1583 1786.19
54.5293 1828.04
54.9003 1736.07
55.2713 1787.35
55.6423 1779.81
56.0133 1677.36
56.3843 1725.02
56.7553 1752.36
57.1263 1703.48
57.4973 1770.18
57.8683 1779.74
58.2393 1831.89
58.6103 1865.43
58.9813 2102.12
59.3523 2185.8
59.7233 1809.23
60.0943 1729.94
60.4653 1720.37
60.8363 1697.36
61.2073 1692.74
61.5783 1661.65
61.9493 1745.92
62.3203 1698.05
62.6913 1746.17
63.0623 1750.1
63.4333 1729.28
63.8043 1734.7
64.1753 1761.58
64.5463 1800.52
64.9173 1763.67
65.2883 1741.35
65.6593 1679.84
66.0303 1688.72
66.4013 1768.5
66.7723 1739.5
67.1433 1626.86
67.5143 1769.77
67.8853 1771.42
68.2563 1723.38
68.6273 1723
68.9983 1730.6
69.3693 1739.42
69.7403 1695.27
70.1113 1739.77
70.4823 1745.74
70.8533 1684.08
71.2243 1741.24
71.5953 1651.41
71.9663 1613.14
72.3373 1687.97
72.7083 1655.3
73.0793 1700.22
73.4503 1634.63
73.8213 1663.63
74.1923 1635.19
74.5633 1647.87
74.9343 1665.85
75.3053 1703.23
75.6763 1730.45
76.0473 1990.22
76.4183 2351.12
76.7893 2746.64
77.1603 2625.26
77.5313 2158.74
77.9023 1716.84
78.2733 1704.75
78.6443 1651.79
79.0153 1663.79
79.3863 1597.17
79.7573 1635.92
80.1283 1682.66
80.4993 1665.85
80.8703 1686.86
81.2413 1647.25
81.6123 1691.7
81.9833 1669.77
82.3543 1675.68
82.7253 1645.43
83.0963 1700.06
83.4673 1705.93
83.8383 1720.51
84.2093 1725.56
84.5803 1762.33
84.9513 1695.26
85.3223 1678.15
85.6933 1710.75
86.0643 1745.59
86.4353 1733.65
86.8063 1705.86
87.1773 1726.29
87.5483 1741.71
87.9193 1709.31
88.2903 1846.86
88.6613 1992.52
89.0323 1957.65
89.4033 1827.03
89.7743 1737.98
90.1453 1655.52
90.5163 1744.22
90.8873 1660.1
91.2583 1728.64
91.6293 1763.29
92.0003 1702.76
92.3713 1660.6
92.7423 1679.5
93.1133 1739
93.4843 1699.92
93.8553 1701.96
94.2263 1706.48
94.5973 1723.93
94.9683 1684.07
95.3393 1709.38
95.7103 1760.9
96.0813 1746.32
96.4523 1787.89
96.8233 1681.07
97.1943 1735.1
97.5653 1735.31
97.9363 1848.03
98.3073 2116.2
98.6783 2914.17
99.0493 4146.25
99.4203 4124.93
99.7913 2643.7
100.162 1999.02
100.533 1821.46
100.904 1750.53
101.275 1747.45
101.646 1781.06
102.017 1827.98
102.388 1818.41
102.759 1779.01
103.13 1789.91
103.501 1811.09
103.872 1810.22
104.243 1832.54
104.614 1852.56
104.985 1863.02
105.356 1803.59
105.727 1866.72
106.098 1754.89
106.469 1792.56
106.84 1796.01
107.211 1780.02
107.582 1756.89
107.953 1814.09
108.324 1823.58
108.695 1765.98
109.066 1782.06
109.437 1861.81
109.808 1877.32
110.179 1894.14
110.55 1980.58
110.921 1869.95
111.292 1784.88
111.663 1732.26
112.034 1683.92
112.405 1649.92
112.776 1657.23
113.147 1715.13
113.518 1650.69
113.889 1664.68
114.26 1723.66
114.631 1731.76
115.002 1635.81
115.373 1689.25
115.744 1685.34
116.115 1623
116.486 1766.19
116.857 1739.19
117.228 1793.55
117.599 1715.59
117.97 1660.11
118.341 1806.3
118.712 1677.88
119.083 1717.49
119.454 1751.62
119.825 1742.9
119.931 1696.69

           SR400
20.0793 1303.33
20.4503 1305.82
20.8213 1339.39
21.1923 1300.97
21.5633 1337.04
21.9343 1311.83
22.3053 1272.8
22.6763 1325.35
23.0473 1262.63
23.4183 1238.37
23.7893 1234.51
24.1603 1227.12
24.5313 1209.86
24.9023 1197.11
25.2733 1212.52
25.6443 1202.54
26.0153 1231.28
26.3863 1147.81
26.7573 1152.59
27.1283 1164.58
27.4993 1114.01
27.8703 1176.3
28.2413 1132.78
28.6123 1141.06
28.9833 1110.73
29.3543 1163.91
29.7253 1131.61
30.0963 1154.03
30.4673 1201.73
30.8383 1230.51
31.2093 1209
31.5803 1175.09
31.9513 1200.05
32.3223 1217.59
32.6933 1199.32
33.0643 1285.94
33.4353 1259.58
33.8063 1261.8
34.1773 1263.02
34.5483 1242.92
34.9193 1281.55
35.2903 1256.76
35.6613 1283.77
36.0323 1234.47
36.4033 1204.98
36.7743 1212.44
37.1453 1196.14
37.5163 1285.09
37.8873 1289.6
38.2583 1232.78
38.6293 1273.82
39.0003 1247.1
39.3713 1279.22
39.7423 1244.31
40.1133 1228.19
40.4843 1264.48
40.8553 1265.76
41.2263 1278.83
41.5973 1316.19
41.9683 1284.62
42.3393 1240.21
42.7103 1271.48
43.0813 1245.28
43.4523 1282.82
43.8233 1265.11
44.1943 1237.57
44.5653 1369.05
44.9363 1280.42
45.3073 1313.93
45.6783 1349.6
46.0493 1235.23
46.4203 1344.07
46.7913 1422.91
47.1623 1387.47
47.5333 1338.63
47.9043 1396.03
48.2753 1372.06
48.6463 1402.72
49.0173 1445.36
49.3883 1436.14
49.7593 1523.79
50.1303 1603.76
50.5013 1898.85
50.8723 1876.52
51.2433 2303.44
51.6143 4894.05
51.9853 18047
52.3563 6663.63
52.7273 2395.41
53.0983 1827.86
53.4693 1695.95
53.8403 1531.33
54.2113 1470.68
54.5823 1504.59
54.9533 1451.26
55.3243 1445.36
55.6953 1376.04
56.0663 1421.01
56.4373 1434.58
56.8083 1434.06
57.1793 1406.7
57.5503 1411.99
57.9213 1408.16
58.2923 1388.49
58.6633 1364.91
59.0343 1457.58
59.4053 1396.47
59.7763 1438.49
60.1473 1358.01
60.5183 1360.03
60.8893 1377.75
61.2603 1378.65
61.6313 1408.47
62.0023 1318.42
62.3733 1380.99
62.7443 1378.66
63.1153 1462.31
63.4863 1385.87
63.8573 1405.49
64.2283 1387.54
64.5993 1438.69
64.9703 1406.83
65.3413 1376.7
65.7123 1385.57
66.0833 1405.7
66.4543 1454.81
66.8253 1428.07
67.1963 1454.19
67.5673 1447.27
67.9383 1437.22
68.3093 1406.95
68.6803 1397.07
69.0513 1382.2
69.4223 1414.53
69.7933 1398.03
70.1643 1388.5
70.5353 1378.39
70.9063 1431.7
71.2773 1380.69
71.6483 1439.78
72.0193 1419.18
72.3903 1445.04
72.7613 1421.46
73.1323 1434.29
73.5033 1440.62
73.8743 1427.81
74.2453 1427.78
74.6163 1482.49
74.9873 1464.01
75.3583 1550.71
75.7293 1634.82
76.1003 1951.44
76.4713 2183.44
76.8423 2195.53
77.2133 1842.84
77.5843 1615.12
77.9553 1469.53
78.3263 1468.92
78.6973 1485.44
79.0683 1569.78
79.4393 1413.35
79.8103 1436.08
80.1813 1443.04
80.5523 1505.82
80.9233 1425.11
81.2943 1441.54
81.6653 1456.29
82.0363 1407.01
82.4073 1416.55
82.7783 1444.4
83.1493 1413.35
83.5203 1470.86
83.8913 1377.44
84.2623 1477.71
84.6333 1423.93
85.0043 1446.23
85.3753 1416.62
85.7463 1483.68
86.1173 1463.59
86.4883 1482.3
86.8593 1474.54
87.2303 1462.34
87.6013 1483.75
87.9723 1413.5
88.3433 1470.01
88.7143 1481.2
89.0853 1458.71
89.4563 1466.4
89.8273 1444.2
90.1983 1502.48
90.5693 1563.23
90.9403 1449.8
91.3113 1529.01
91.6823 1497.41
92.0533 1487.13
92.4243 1459.12
92.7953 1462.22
93.1663 1443.78
93.5373 1400.73
93.9083 1472.3
94.2793 1427.96
94.6503 1466.09
95.0213 1404.3
95.3923 1370.5
95.7633 1387.72
96.1343 1393.66
96.5053 1346.97
96.8763 1431.72
97.2473 1449.95
97.6183 1555.07
97.9893 1692.92
98.3603 2142.58
98.7313 2922.69
99.1023 3484.79
99.4733 2613.52
99.8443 1822.29
100.215 1642.99
100.586 1490.32
100.957 1470.04
101.328 1519
101.699 1501.16
102.07 1527.7
102.441 1445.15
102.812 1516.31
103.183 1478.12
103.554 1431.16
103.925 1441.78
104.296 1458.95
104.667 1503.52
105.038 1466.9
105.409 1465.65
105.78 1548.15
106.151 1485.38
106.522 1514.8
106.893 1542.96
107.264 1444.8
107.635 1511.66
108.006 1538.98
108.377 1505.44
108.748 1522.38
109.119 1586.36
109.49 1508.36
109.861 1530.28
110.232 1542.13
110.603 1534.41
110.974 1541.35
111.345 1497.59
111.716 1521.84
112.087 1514.56
112.458 1442.1
112.829 1540.93
113.2 1497.91
113.571 1533.64
113.942 1541.24
114.313 1441.24
114.684 1498.06
115.055 1452.31
115.426 1459.26
115.797 1503.72
116.168 1509.72
116.539 1531.75
116.91 1532.06
117.281 1507.24
117.652 1514.7
118.023 1570.06
118.394 1553.24
118.765 1492.3
119.136 1547.01
119.507 1560.11
119.878 1564.33
119.931 1514.65

        SR450
20.0263 1374.01
20.3973 1359.71
20.7683 1337.18
21.1393 1298.14
21.5103 1332.26
21.8813 1331.31
22.2523 1310.02
22.6233 1324.37
22.9943 1303.01
23.3653 1312.56
23.7363 1260.86
24.1073 1260.82
24.4783 1256.29
24.8493 1226.91
25.2203 1297.36
25.5913 1300.37
25.9623 1294.71
26.3333 1220.19
26.7043 1252.81
27.0753 1228.22
27.4463 1200.09
27.8173 1306.16
28.1883 1295.03
28.5593 1243
28.9303 1306.3
29.3013 1253.79
29.6723 1291.09
30.0433 1266.13
30.4143 1314.61
30.7853 1252.43
31.1563 1257.41
31.5273 1310.19
31.8983 1269.36
32.2693 1275.84
32.6403 1218.05
33.0113 1226.73
33.3823 1246.66
33.7533 1173.04
34.1243 1200.47
34.4953 1174.41
34.8663 1188.13
35.2373 1131.14
35.6083 1177.59
35.9793 1221.98
36.3503 1178.97
36.7213 1204.38
37.0923 1182.92
37.4633 1230
37.8343 1225.82
38.2053 1173.96
38.5763 1249.42
38.9473 1211.92
39.3183 1228.29
39.6893 1289.18
40.0603 1315.92
40.4313 1330.53
40.8023 1318.76
41.1733 1343.77
41.5443 1364.61
41.9153 1321.71
42.2863 1358.87
42.6573 1373.09
43.0283 1373
43.3993 1379.78
43.7703 1429.33
44.1413 1446.98
44.5123 1398.24
44.8833 1427.1
45.2543 1399.13
45.6253 1416.68
45.9963 1439.67
46.3673 1361.02
46.7383 1455.97
47.1093 1546.54
47.4803 1512.99
47.8513 1460.83
48.2223 1517.14
48.5933 1532.51
48.9643 1526.38
49.3353 1661.88
49.7063 1630.77
50.0773 1703.72
50.4483 2148.12
50.8193 2954.62
51.1903 2244.45
51.5613 2748.31
51.9323 7341.58
52.3033 8549.77
52.6743 2604.8
53.0453 1924.76
53.4163 1695.74
53.7873 1683.7
54.1583 1647.99
54.5293 1640.23
54.9003 1624
55.2713 1697.02
55.6423 1647.13
56.0133 1676.79
56.3843 1681.53
56.7553 1696.18
57.1263 1616.3
57.4973 1684.24
57.8683 1692.66
58.2393 1792.31
58.6103 1818.42
58.9813 2041.98
59.3523 2135.02
59.7233 1841.78
60.0943 1792.59
60.4653 1763.74
60.8363 1763.21
61.2073 1729.94
61.5783 1674.28
61.9493 1778.22
62.3203 1772.81
62.6913 1723.02
63.0623 1824.38
63.4333 1763.83
63.8043 1776.95
64.1753 1842.39
64.5463 1786.39
64.9173 1740.44
65.2883 1704.6
65.6593 1760.38
66.0303 1784.95
66.4013 1679.17
66.7723 1748.92
67.1433 1742.77
67.5143 1754.09
67.8853 1737.31
68.2563 1744.48
68.6273 1680.56
68.9983 1767.01
69.3693 1780.29
69.7403 1726.98
70.1113 1782.25
70.4823 1683.33
70.8533 1757.15
71.2243 1729.9
71.5953 1724.95
71.9663 1726.88
72.3373 1711.09
72.7083 1790.09
73.0793 1869.25
73.4503 1844.53
73.8213 1831.58
74.1923 1838.84
74.5633 1817.64
74.9343 1816.56
75.3053 1841.74
75.6763 1874.72
76.0473 1977.38
76.4183 2290.43
76.7893 2436.12
77.1603 2491
77.5313 2144.02
77.9023 1848.97
78.2733 1825.26
78.6443 1713.77
79.0153 1744.68
79.3863 1754.47
79.7573 1667.1
80.1283 1746.84
80.4993 1717.48
80.8703 1684.68
81.2413 1754.85
81.6123 1634.1
81.9833 1683.82
82.3543 1692.58
82.7253 1659.54
83.0963 1640.51
83.4673 1654.91
83.8383 1685.86
84.2093 1687.06
84.5803 1628.14
84.9513 1708.21
85.3223 1707.86
85.6933 1656.89
86.0643 1691.11
86.4353 1652.43
86.8063 1623.72
87.1773 1693.78
87.5483 1683.44
87.9193 1689.33
88.2903 1783.65
88.6613 1875.17
89.0323 1986.67
89.4033 1867.46
89.7743 1786.09
90.1453 1795.94
90.5163 1734.56
90.8873 1740.01
91.2583 1805.88
91.6293 1803.11
92.0003 1757.54
92.3713 1706.87
92.7423 1708.45
93.1133 1725.89
93.4843 1767.71
93.8553 1713.24
94.2263 1708.46
94.5973 1723.78
94.9683 1754.63
95.3393 1783.82
95.7103 1702.96
96.0813 1735.38
96.4523 1754.25
96.8233 1746.72
97.1943 1802.25
97.5653 1863.94
97.9363 1949.36
98.3073 2229.02
98.6783 3014.44
99.0493 4367.7
99.4203 4522.42
99.7913 2860.88
100.162 2164.08
100.533 1950.61
100.904 1781.75
101.275 1852.69
101.646 1811.81
102.017 1808.75
102.388 1827.94
102.759 1698.03
103.13 1771.96
103.501 1747.47
103.872 1780.16
104.243 1731.08
104.614 1797.3
104.985 1743.71
105.356 1778.29
105.727 1727.88
106.098 1686.87
106.469 1685.69
106.84 1710.97
107.211 1685.94
107.582 1638.7
107.953 1715.88
108.324 1670.26
108.695 1654.03
109.066 1624.65
109.437 1760.05
109.808 1833.99
110.179 1874.21
110.55 1927.4
110.921 1838.95
111.292 1786.18
111.663 1746.34
112.034 1756.21
112.405 1725.95
112.776 1787.96
113.147 1771.85
113.518 1718.95
113.889 1702.21
114.26 1720.13
114.631 1745.04
115.002 1734.74
115.373 1728.11
115.744 1714.14
116.115 1774.28
116.486 1736.08
116.857 1756.81
117.228 1790.01
117.599 1755.44
117.97 1745.41
118.341 1761.6
118.712 1837.22
119.083 1694.58
119.454 1709.01
119.825 1752.16
119.931 1717.53

         SR500
20.0263 1405.01
20.3973 1479.3
20.7683 1375.73
21.1393 1302.8
21.5103 1268.67
21.8813 1296.41
22.2523 1294.88
22.6233 1267.45
22.9943 1317.29
23.3653 1238.14
23.7363 1279.58
24.1073 1292.03
24.4783 1214.24
24.8493 1243.52
25.2203 1201.57
25.5913 1285.28
25.9623 1226.75
26.3333 1187.37
26.7043 1228.8
27.0753 1236.48
27.4463 1214.59
27.8173 1192.01
28.1883 1226.83
28.5593 1253.43
28.9303 1238.16
29.3013 1196.72
29.6723 1187.93
30.0433 1235.58
30.4143 1150.83
30.7853 1226.92
31.1563 1231.98
31.5273 1228.8
31.8983 1253.23
32.2693 1316.07
32.6403 1214.46
33.0113 1268.4
33.3823 1255.5
33.7533 1301
34.1243 1297.77
34.4953 1275.13
34.8663 1262.97
35.2373 1265.99
35.6083 1311.68
35.9793 1301.09
36.3503 1289.27
36.7213 1313.11
37.0923 1317.36
37.4633 1323
37.8343 1301.61
38.2053 1339.57
38.5763 1338.22
38.9473 1329.42
39.3183 1335.11
39.6893 1388.45
40.0603 1346.8
40.4313 1424.02
40.8023 1350.53
41.1733 1335.77
41.5443 1380.66
41.9153 1424.31
42.2863 1384.27
42.6573 1433.11
43.0283 1435.53
43.3993 1464.09
43.7703 1489.11
44.1413 1462
44.5123 1411.65
44.8833 1491.17
45.2543 1471.55
45.6253 1470.65
45.9963 1483.08
46.3673 1503
46.7383 1571.16
47.1093 1605.72
47.4803 1547.36
47.8513 1614.55
48.2223 1568.99
48.5933 1553.96
48.9643 1629.71
49.3353 1719.01
49.7063 1677.19
50.0773 1793.56
50.4483 2231.5
50.8193 3469.12
51.1903 2514.65
51.5613 3019.41
51.9323 9228.22
52.3033 12647.4
52.6743 3483.02
53.0453 2206.42
53.4163 1898.46
53.7873 1856.3
54.1583 1813.32
54.5293 1726.3
54.9003 1783.98
55.2713 1740.95
55.6423 1767.72
56.0133 1802.35
56.3843 1745.11
56.7553 1737.61
57.1263 1777.6
57.4973 1753.95
57.8683 1852.19
58.2393 1792
58.6103 1876.22
58.9813 2102.48
59.3523 2259.87
59.7233 1982.64
60.0943 1811.91
60.4653 1747.36
60.8363 1720.63
61.2073 1752.51
61.5783 1737.42
61.9493 1770.35
62.3203 1774.49
62.6913 1773.84
63.0623 1751.13
63.4333 1785.28
63.8043 1794.48
64.1753 1693.81
64.5463 1723.68
64.9173 1787.66
65.2883 1766.62
65.6593 1721.65
66.0303 1723.72
66.4013 1779.92
66.7723 1770.51
67.1433 1701.29
67.5143 1760.55
67.8853 1722.68
68.2563 1778.83
68.6273 1763.99
68.9983 1884.07
69.3693 1778.8
69.7403 1783.11
70.1113 1787.39
70.4823 1797.74
70.8533 1788.46
71.2243 1749.67
71.5953 1770.99
71.9663 1779.55
72.3373 1796.97
72.7083 1811.78
73.0793 1794.26
73.4503 1775.97
73.8213 1812.43
74.1923 1845.51
74.5633 1756.86
74.9343 1795.61
75.3053 1800.78
75.6763 1842.28
76.0473 2043.15
76.4183 2490.51
76.7893 2753.24
77.1603 2365.44
77.5313 1903.81
77.9023 1756.01
78.2733 1817.04
78.6443 1775.08
79.0153 1834.72
79.3863 1747.48
79.7573 1763.82
80.1283 1719.81
80.4993 1773.02
80.8703 1761.98
81.2413 1770.91
81.6123 1768.1
81.9833 1738.98
82.3543 1804.25
82.7253 1776.02
83.0963 1759.56
83.4673 1709.63
83.8383 1804.97
84.2093 1800.89
84.5803 1822.64
84.9513 1767.57
85.3223 1795.53
85.6933 1825.78
86.0643 1780.26
86.4353 1869.18
86.8063 1744.78
87.1773 1820.51
87.5483 1820.17
87.9193 1826.05
88.2903 1858.3
88.6613 1951.6
89.0323 1958.67
89.4033 1898.09
89.7743 1781.1
90.1453 1763.9
90.5163 1811.81
90.8873 1810.4
91.2583 1694.16
91.6293 1798.65
92.0003 1779.14
92.3713 1763.93
92.7423 1809.81
93.1133 1756.81
93.4843 1754.11
93.8553 1760.89
94.2263 1751.87
94.5973 1805.98
94.9683 1741.58
95.3393 1814.87
95.7103 1773.08
96.0813 1896.01
96.4523 1783.82
96.8233 1848.22
97.1943 1892.94
97.5653 1965.48
97.9363 1990.91
98.3073 2246.72
98.6783 2893.01
99.0493 3981.4
99.4203 3735.66
99.7913 2632.1
100.162 2134.41
100.533 1991.71
100.904 1924.51
101.275 1890.48
101.646 1856.68
102.017 1796.02
102.388 1830.17
102.759 1775.92
103.13 1812.85
103.501 1806.75
103.872 1833.63
104.243 1795.24
104.614 1724.24
104.985 1719.99
105.356 1780.99
105.727 1793.02
106.098 1788.73
106.469 1848.59
106.84 1794.51
107.211 1733.11
107.582 1798.39
107.953 1752.31
108.324 1871.51
108.695 1829.09
109.066 1824.7
109.437 1896.66
109.808 1962.3
110.179 2004.13
110.55 1964.54
110.921 1890.18
111.292 1866.64
111.663 1783.72
112.034 1693.64
112.405 1787.82
112.776 1783.65
113.147 1770.69
113.518 1793.77
113.889 1803.89
114.26 1860.64
114.631 1831.27
115.002 1754.74
115.373 1801.14
115.744 1781.14
116.115 1793.47
116.486 1800.3
116.857 1772.3
117.228 1810.53
117.599 1851.8
117.97 1803.25
118.341 1888.17
118.712 1770.72
119.083 1773.82
119.454 1778.98
119.825 1707.89
119.931 1720.37

          SR500

20.0263 1340.01
[...]
119.825 1780.58
119.931 1852.56

        SR550

20.0263 1340.01
20.3973 1370.19
20.7683 1355.65
21.1393 1306.73
21.5103 1404.09
21.8813 1336.8
22.2523 1398.15
22.6233 1328.5
22.9943 1321.37
23.3653 1340.73
23.7363 1328.97
24.1073 1317.71
24.4783 1358.03
24.8493 1379.89
25.2203 1327.58
25.5913 1329.91
25.9623 1340.73
26.3333 1303.94
26.7043 1386.46
27.0753 1350.26
27.4463 1325.59
27.8173 1367.11
28.1883 1320.31
28.5593 1357.46
28.9303 1355.1
29.3013 1355.08
29.6723 1349.58
30.0433 1321.77
30.4143 1334.2
30.7853 1308.33
31.1563 1348.54
31.5273 1397.29
31.8983 1391.68
32.2693 1420.83
32.6403 1365.69
33.0113 1426.18
33.3823 1340.98
33.7533 1409.07
34.1243 1349.38
34.4953 1411.53
34.8663 1397.45
35.2373 1306.02
35.6083 1374.45
35.9793 1342.64
36.3503 1387.46
36.7213 1385.82
37.0923 1327.92
37.4633 1436
37.8343 1375.92
38.2053 1363.59
38.5763 1435.95
38.9473 1400.31
39.3183 1395.95
39.6893 1387.34
40.0603 1416.21
40.4313 1400.6
40.8023 1491.5
41.1733 1463.44
41.5443 1439.36
41.9153 1467.17
42.2863 1450.09
42.6573 1501.9
43.0283 1476.95
43.3993 1503.67
43.7703 1477.05
44.1413 1434.31
44.5123 1448.51
44.8833 1493.44
45.2543 1461.36
45.6253 1480.22
45.9963 1462.93
46.3673 1561.52
46.7383 1582.94
47.1093 1564.1
47.4803 1565.87
47.8513 1569.64
48.2223 1576.92
48.5933 1649.1
48.9643 1717.34
49.3353 1752.13
49.7063 1646.64
50.0773 1806.69
50.4483 2352.48
50.8193 3220.27
51.1903 2327.43
51.5613 2771.96
51.9323 7809.96
52.3033 10299.4
52.6743 2847.84
53.0453 2127.93
53.4163 1941.32
53.7873 1788.95
54.1583 1809.96
54.5293 1827.66
54.9003 1733.1
55.2713 1799.08
55.6423 1847.59
56.0133 1743.84
56.3843 1783.38
56.7553 1817.28
57.1263 1751.63
57.4973 1757.92
57.8683 1750.31
58.2393 1811.51
58.6103 1907.58
58.9813 2119.22
59.3523 2164.8
59.7233 1870.58
60.0943 1766.04
60.4653 1805.51
60.8363 1789.55
61.2073 1722.98
61.5783 1654.02
61.9493 1730.26
62.3203 1744.77
62.6913 1747.14
63.0623 1754.72
63.4333 1729.35
63.8043 1746.36
64.1753 1697.73
64.5463 1696.86
64.9173 1765.95
65.2883 1746.77
65.6593 1627.89
66.0303 1741.89
66.4013 1658.35
66.7723 1693.04
67.1433 1681.5
67.5143 1688.38
67.8853 1735.24
68.2563 1701.53
68.6273 1698.06
68.9983 1763.48
69.3693 1693.85
69.7403 1723.72
70.1113 1750.57
70.4823 1690.69
70.8533 1708.33
71.2243 1670.86
71.5953 1704.47
71.9663 1643.03
72.3373 1692.02
72.7083 1722.37
73.0793 1689.86
73.4503 1756.23
73.8213 1674.99
74.1923 1723.06
74.5633 1653.06
74.9343 1744.6
75.3053 1762.02
75.6763 1824.14
76.0473 1935.53
76.4183 2302.51
76.7893 2586.53
77.1603 2625.06
77.5313 2158.84
77.9023 1827.06
78.2733 1786.99
78.6443 1752.52
79.0153 1764.24
79.3863 1708.51
79.7573 1689.01
80.1283 1661.3
80.4993 1660.69
80.8703 1682.91
81.2413 1679.33
81.6123 1646.01
81.9833 1722.82
82.3543 1652.83
82.7253 1692.52
83.0963 1682.21
83.4673 1646.36
83.8383 1662.21
84.2093 1743.59
84.5803 1670.3
84.9513 1734.39
85.3223 1709.45
85.6933 1723.66
86.0643 1635.6
86.4353 1718.71
86.8063 1759.76
87.1773 1726.15
87.5483 1799.82
87.9193 1775.5
88.2903 1858.94
88.6613 2030.84
89.0323 2006.22
89.4033 1818.81
89.7743 1786.91
90.1453 1727.69
90.5163 1720.65
90.8873 1656.01
91.2583 1727.17
91.6293 1707.61
92.0003 1636.43
92.3713 1695.12
92.7423 1719.48
93.1133 1737.32
93.4843 1628.91
93.8553 1637.87
94.2263 1742.77
94.5973 1769.93
94.9683 1602.95
95.3393 1712.63
95.7103 1705.09
96.0813 1737.46
96.4523 1766.41
96.8233 1750.27
97.1943 1773.53
97.5653 1833.81
97.9363 1841.71
98.3073 1991.22
98.6783 2679.82
99.0493 4012.23
99.4203 4243.82
99.7913 2654.31
100.162 1967.71
100.533 1827.11
100.904 1774.41
101.275 1699.1
101.646 1725.85
102.017 1751.06
102.388 1757.65
102.759 1719.41
103.13 1772.85
103.501 1748
103.872 1712.62
104.243 1726
104.614 1736.64
104.985 1728.94
105.356 1717.46
105.727 1730.47
106.098 1698.71
106.469 1816.27
106.84 1754.08
107.211 1778.08
107.582 1768.7
107.953 1740.51
108.324 1787.45
108.695 1799.71
109.066 1708.79
109.437 1788.64
109.808 1846.59
110.179 1920.59
110.55 1911.05
110.921 1854.1
111.292 1757.87
111.663 1741.18
112.034 1684.42
112.405 1776.39
112.776 1757.32
113.147 1762.47
113.518 1732.37
113.889 1741.99
114.26 1717.54
114.631 1713.52
115.002 1766.22
115.373 1773.42
115.744 1763.63
116.115 1774.82
116.486 1815.41
116.857 1833.8
117.228 1888.14
117.599 1769.23
117.97 1788.99
118.341 1829.58
118.712 1788.22
119.083 1712.48
119.454 1794.15
119.825 1780.58
119.931 1852.56

          SA1100

20.0263 1417.01
20.3973 1404
20.7683 1443.37
21.1393 1463.14
21.5103 1394.63
21.8813 1410.54
22.2523 1420.19
22.6233 1449.46
22.9943 1436.59
23.3653 1424.51
23.7363 1424.12
24.1073 1369.99
24.4783 1406.88
24.8493 1381.38
25.2203 1485.95
25.5913 1461.87
25.9623 1368.6
26.3333 1374.46
26.7043 1357.22
27.0753 1379.16
27.4463 1392.79
27.8173 1397.85
28.1883 1406.49
28.5593 1362.18
28.9303 1395.94
29.3013 1328.35
29.6723 1346.45
30.0433 1336.4
30.4143 1316.31
30.7853 1332.41
31.1563 1393.43
31.5273 1393.3
31.8983 1400.62
32.2693 1327
32.6403 1438.26
33.0113 1390.03
33.3823 1408.26
33.7533 1436.64
34.1243 1448.8
34.4953 1448.21
34.8663 1395.02
35.2373 1414.55
35.6083 1453.06
35.9793 1452.29
36.3503 1402.48
36.7213 1414.02
37.0923 1441.11
37.4633 1429.01
37.8343 1487.66
38.2053 1458.76
38.5763 1415.19
38.9473 1421.43
39.3183 1482.77
39.6893 1471.35
40.0603 1409.23
40.4313 1468.95
40.8023 1506.88
41.1733 1515.48
41.5443 1439.29
41.9153 1481.64
42.2863 1503.39
42.6573 1516.11
43.0283 1489.01
43.3993 1542.99
43.7703 1565.1
44.1413 1545.15
44.5123 1526.29
44.8833 1561.56
45.2543 1613.91
45.6253 1580.15
45.9963 1671.95
46.3673 1660.64
46.7383 1674.56
47.1093 1659.8
47.4803 1675.37
47.8513 1722.16
48.2223 1699.65
48.5933 1736.73
48.9643 1726.16
49.3353 1877.91
49.7063 1929.87
50.0773 2102.42
50.4483 3062.2
50.8193 16626.8
51.1903 3962.04
51.5613 2785.44
51.9323 7453.91
52.3033 4068.07
52.6743 2086.28
53.0453 1955.94
53.4163 1834.08
53.7873 1713.14
54.1583 1755.73
54.5293 1830.78
54.9003 1867.99
55.2713 1806.8
55.6423 1819.79
56.0133 1831.17
56.3843 1827.56
56.7553 1870.02
57.1263 1889.22
57.4973 1884.75
57.8683 1909.09
58.2393 2065.6
58.6103 2349.93
58.9813 3661.23
59.3523 6495.49
59.7233 2502.13
60.0943 1977.97
60.4653 1856.9
60.8363 1718.32
61.2073 1685.91
61.5783 1703.53
61.9493 1713.98
62.3203 1739.42
62.6913 1735.9
63.0623 1703.21
63.4333 1628.47
63.8043 1641.57
64.1753 1614.48
64.5463 1677.33
64.9173 1685.53
65.2883 1661.04
65.6593 1651.23
66.0303 1666.53
66.4013 1658.36
66.7723 1732.01
67.1433 1628.94
67.5143 1640.31
67.8853 1713.55
68.2563 1636.43
68.6273 1643.23
68.9983 1631.08
69.3693 1595.78
69.7403 1615.22
70.1113 1639.94
70.4823 1614.18
70.8533 1622.8
71.2243 1608.43
71.5953 1637.81
71.9663 1697.67
72.3373 1635.96
72.7083 1679.82
73.0793 1651.93
73.4503 1644.79
73.8213 1609.96
74.1923 1691.79
74.5633 1659.44
74.9343 1693.68
75.3053 1704.5
75.6763 1689.24
76.0473 1716.44
76.4183 2010.91
76.7893 2059.88
77.1603 1716.93
77.5313 1706.26
77.9023 1638.14
78.2733 1648.17
78.6443 1676.61
79.0153 1682.34
79.3863 1628.54
79.7573 1679.21
80.1283 1620.74
80.4993 1606.8
80.8703 1644.23
81.2413 1653.12
81.6123 1646.46
81.9833 1656.84
82.3543 1699.15
82.7253 1680.23
83.0963 1668.71
83.4673 1654.5
83.8383 1713.71
84.2093 1667.29
84.5803 1742.49
84.9513 1684.73
85.3223 1719.77
85.6933 1733.03
86.0643 1758.7
86.4353 1751.12
86.8063 1768.77
87.1773 1679.62
87.5483 1779.9
87.9193 1799.47
88.2903 1873.19
88.6613 2339.55
89.0323 3514.17
89.4033 2117.84
89.7743 1928.91
90.1453 1813.44
90.5163 1739.51
90.8873 1749.78
91.2583 1708.82
91.6293 1738.56
92.0003 1682.13
92.3713 1706.19
92.7423 1648.95
93.1133 1676.57
93.4843 1663.99
93.8553 1676.49
94.2263 1690.65
94.5973 1693.53
94.9683 1675.24
95.3393 1644.04
95.7103 1708.23
96.0813 1704.24
96.4523 1680.52
96.8233 1679.92
97.1943 1689.62
97.5653 1652.83
97.9363 1716.98
98.3073 1792.17
98.6783 2166.69
99.0493 2562.57
99.4203 1917.9
99.7913 1741.46
100.162 1638.14
100.533 1747.21
100.904 1708.26
101.275 1707.6
101.646 1683.97
102.017 1786.7
102.388 1705.89
102.759 1769.2
103.13 1736.94
103.501 1700.25
103.872 1721.18
104.243 1697.04
104.614 1632.89
104.985 1685.16
105.356 1663.97
105.727 1656.5
106.098 1724.23
106.469 1651.07
106.84 1733.54
107.211 1607.12
107.582 1642.7
107.953 1707.12
108.324 1745.02
108.695 1747.74
109.066 1805.48
109.437 1906.3
109.808 2178.93
110.179 3095.75
110.55 3440.05
110.921 2453.32
111.292 1932.03
111.663 1755.48
112.034 1763.66
112.405 1843.15
112.776 1733.5
113.147 1719.11
113.518 1734.18
113.889 1793.46
114.26 1690.71
114.631 1741.96
115.002 1753.16
115.373 1710.13
115.744 1753.34
116.115 1710.61
116.486 1710.27
116.857 1751.94
117.228 1702.24
117.599 1778.3
117.97 2144.2
118.341 2402.51
118.712 2199.88
119.083 1756.32
119.454 1812.2
119.825 1727.75
119.931 1717.88